Folder: TGA-HTGA-CCHTGA/test_cases/tga

Note: README.md
# Implementation of a Traditional Genetic Algorithm, the Hybrid-Taguchi Genetic Algorithm and the Cooperative Coevolutive Hybrid-Taguchi Genetic Algorithm

File: f10_10000_30_test-OUTPUT.csv
best fitness,generation of best fitness,function evaluations of best fitness,optimal value,relative error
1481.61,10000,40200,0,1481.61
2044.12,10000,40200,0,2044.12
1337.59,10000,40200,0,1337.59
1512.06,10000,40200,0,1512.06
2058.11,10000,40200,0,2058.11
1026.8,10000,40200,0,1026.8
1280.03,10000,40200,0,1280.03
1557.27,10000,40200,0,1557.27
1216.73,10000,40200,0,1216.73
589.453,10000,40200,0,589.453
665.662,10000,40200,0,665.662
1047.41,10000,40200,0,1047.41
1099.64,10000,40200,0,1099.64
1783.45,10000,40200,0,1783.45
1375.74,10000,40200,0,1375.74
1010.19,10000,40200,0,1010.19
1783.58,10000,40200,0,1783.58
1855.66,10000,40200,0,1855.66
1299.5,10000,40200,0,1299.5
1735.44,10000,40200,0,1735.44
1285.27,10000,40200,0,1285.27
1969.32,10000,40200,0,1969.32
2314.02,10000,40200,0,2314.02
1296.61,10000,40200,0,1296.61
1217.18,10000,40200,0,1217.18
866.551,10000,40200,0,866.551
1305.27,10000,40200,0,1305.27
1728.65,10000,40200,0,1728.65
1814.34,10000,40200,0,1814.34
1150.45,10000,40200,0,1150.45
1387.37,10000,40200,0,1387.37
966.088,10000,40200,0,966.088
1355.05,10000,40200,0,1355.05
1295.61,10000,40200,0,1295.61
1889.91,10000,40200,0,1889.91
1630.47,10000,40200,0,1630.47
1123.63,10000,40200,0,1123.63
1288.94,10000,40200,0,1288.94
1864.23,10000,40200,0,1864.23
1361.29,10000,40200,0,1361.29
1216.27,10000,40200,0,1216.27
1121.58,10000,40200,0,1121.58
1831.08,10000,40200,0,1831.08
1270.54,10000,40200,0,1270.54
1571.07,10000,40200,0,1571.07
1075.63,10000,40200,0,1075.63
1057.96,10000,40200,0,1057.96
2670.48,10000,40200,0,2670.48
1223.61,10000,40200,0,1223.61
477.946,10000,40200,0,477.946

File: f10_10000_100_test-OUTPUT.csv
best fitness,generation of best fitness,function evaluations of best fitness,optimal value,relative error
60614.7,10000,40200,0,60614.7
57032.6,10000,40200,0,57032.6
82531.9,10000,40200,0,82531.9
84364,10000,40200,0,84364
75503,10000,40200,0,75503
107760,10000,40200,0,107760
73368.7,10000,40200,0,73368.7
93477,10000,40200,0,93477
84905.2,10000,40200,0,84905.2
73114.3,10000,40200,0,73114.3
49582.5,10000,40200,0,49582.5
68852.5,10000,40200,0,68852.5
60992.6,10000,40200,0,60992.6
87788.8,10000,40200,0,87788.8
53852.2,10000,40200,0,53852.2
85390.7,10000,40200,0,85390.7
69799.1,10000,40200,0,69799.1
92926.7,10000,40200,0,92926.7
76334.4,10000,40200,0,76334.4
66302.9,10000,40200,0,66302.9
53082.5,10000,40200,0,53082.5
75765.9,10000,40200,0,75765.9
95311.7,10000,40200,0,95311.7
74119.3,10000,40200,0,74119.3
97089.5,10000,40200,0,97089.5
63576.1,10000,40200,0,63576.1
77525.9,10000,40200,0,77525.9
68659.9,10000,40200,0,68659.9
65154.7,10000,40200,0,65154.7
71306,10000,40200,0,71306
46789.9,10000,40200,0,46789.9
78049.9,10000,40200,0,78049.9
101754,10000,40200,0,101754
83532.4,10000,40200,0,83532.4
63077.5,10000,40200,0,63077.5
60586.8,10000,40200,0,60586.8
42310.4,10000,40200,0,42310.4
99266.8,10000,40200,0,99266.8
78185.7,10000,40200,0,78185.7
86069.3,10000,40200,0,86069.3
81110.5,10000,40200,0,81110.5
87993.2,10000,40200,0,87993.2
71039.5,10000,40200,0,71039.5
75731.4,10000,40200,0,75731.4
58286.7,10000,40200,0,58286.7
69109.4,10000,40200,0,69109.4
69104.7,10000,40200,0,69104.7
70068.8,10000,40200,0,70068.8
81016.6,10000,40200,0,81016.6
36794.5,10000,40200,0,36794.5

File: f10_10000_1000_test-OUTPUT.csv
best fitness,generation of best fitness,function evaluations of best fitness,optimal value,relative error
3.91096e+07,10000,40200,0,3.91096e+07
4.05259e+07,10000,40200,0,4.05259e+07
3.84975e+07,10000,40200,0,3.84975e+07
3.74918e+07,10000,40200,0,3.74918e+07
3.82337e+07,10000,40200,0,3.82337e+07
4.27694e+07,10000,40200,0,4.27694e+07
3.26436e+07,10000,40200,0,3.26436e+07
3.92872e+07,10000,40200,0,3.92872e+07
3.74424e+07,10000,40200,0,3.74424e+07
3.93245e+07,10000,40200,0,3.93245e+07
3.93234e+07,10000,40200,0,3.93234e+07
4.07225e+07,10000,40200,0,4.07225e+07
3.81009e+07,10000,40200,0,3.81009e+07
4.24437e+07,10000,40200,0,4.24437e+07
3.61245e+07,10000,40200,0,3.61245e+07
3.73504e+07,10000,40200,0,3.73504e+07
4.1353e+07,10000,40200,0,4.1353e+07
3.80412e+07,10000,40200,0,3.80412e+07
3.56923e+07,10000,40200,0,3.56923e+07
4.12305e+07,10000,40200,0,4.12305e+07
3.35569e+07,10000,40200,0,3.35569e+07
3.89258e+07,10000,40200,0,3.89258e+07
3.84511e+07,10000,40200,0,3.84511e+07
4.07376e+07,10000,40200,0,4.07376e+07
3.84534e+07,10000,40200,0,3.84534e+07
4.09168e+07,10000,40200,0,4.09168e+07
3.85768e+07,10000,40200,0,3.85768e+07
4.3191e+07,10000,40200,0,4.3191e+07
3.7806e+07,10000,40200,0,3.7806e+07
3.79422e+07,10000,40200,0,3.79422e+07
3.81182e+07,10000,40200,0,3.81182e+07
3.91818e+07,10000,40200,0,3.91818e+07
3.49716e+07,10000,40200,0,3.49716e+07
3.80761e+07,10000,40200,0,3.80761e+07
3.8659e+07,10000,40200,0,3.8659e+07
3.88377e+07,10000,40200,0,3.88377e+07
3.4234e+07,10000,40200,0,3.4234e+07
3.55667e+07,10000,40200,0,3.55667e+07
3.7395e+07,10000,40200,0,3.7395e+07
3.92463e+07,10000,40200,0,3.92463e+07
3.73173e+07,10000,40200,0,3.73173e+07
4.21339e+07,10000,40200,0,4.21339e+07
3.64131e+07,10000,40200,0,3.64131e+07
3.935e+07,10000,40200,0,3.935e+07
4.10108e+07,10000,40200,0,4.10108e+07
4.31805e+07,10000,40200,0,4.31805e+07
3.77126e+07,10000,40200,0,3.77126e+07
3.77936e+07,10000,40200,0,3.77936e+07
3.83053e+07,10000,40200,0,3.83053e+07
3.71145e+07,10000,40200,0,3.71145e+07